{
  "resourceType" : "Bundle",
  "id" : "testbundle0",
  "type" : "transaction",
  "entry" : [{
    "fullUrl" : "urn:uuid:05350493-265e-4f8d-87b3-549b19bd5c9d",
    "resource" : {
      "resourceType" : "TestPlan",
      "id" : "testplan1",
      "text" : {
        "status" : "empty",
        "div" : "<div xmlns=\"http://www.w3.org/1999/xhtml\">No text</div>"
      },
      "title" : "Gherkin test plan",
      "status" : "active",
      "description" : "Test Plan - Simple content testing",
      "testCase" : [{
        "sequence" : 1,
        "testRun" : [{
          "narrative" : "**Test Measure**\n   * Populate the server with some data and a Measure\n   * call the $eval operation\n   * Use JSONpath to check that the measure evaluates correctly",
          "script" : {
            "language" : {
              "coding" : [{
                "code" : "gherkin"
              }]
            },
            "sourceReference" : {
              "reference" : "Binary/ghript-measure"
            }
          }
        }]
      },
      {
        "sequence" : 2,
        "testRun" : [{
          "narrative" : "**Test Summary**\n   * Populate the server with some data\n   * call the $summary operation\n   * check that the summary is generated\n   * check that the summary was not persisted",
          "script" : {
            "language" : {
              "coding" : [{
                "code" : "gherkin"
              }]
            },
            "sourceReference" : {
              "reference" : "Binary/ghript-summary"
            }
          }
        }]
      }]
    },
    "request" : {
      "method" : "PUT",
      "url" : "TestPlan"
    }
  },
  {
    "fullUrl" : "urn:uuid:05350493-265e-4f8d-87b3-549b19bd5c9e",
    "resource" : {
      "resourceType" : "Binary",
      "id" : "ghript-measure",
      "contentType" : "text/x-gherkin",
      "data" : ""
    },
    "request" : {
      "method" : "PUT",
      "url" : "Binary"
    }
  },
  {
    "fullUrl" : "urn:uuid:05350493-265e-4f8d-87b3-549b19bd5c9f",
    "resource" : {
      "resourceType" : "Binary",
      "id" : "ghript-summary",
      "contentType" : "text/x-gherkin",
      "data" : ""
    },
    "request" : {
      "method" : "PUT",
      "url" : "Binary"
    }
  }]
}