<?xml version="1.0" encoding="UTF-8"?>

<Bundle xmlns="http://hl7.org/fhir">
  <id value="testbundle1"/>
  <type value="transaction"/>
  <entry>
    <fullUrl value="urn:uuid:05350493-265e-4f8d-87b3-549b19bd5c9d"/>
    <resource>
      <TestPlan>
        <id value="testplan1"/>
        <text>
          <status value="empty"/><div xmlns="http://www.w3.org/1999/xhtml">No text</div>
        </text>
        <title value="Gherkin test plan"/>
        <status value="active"/>
        <description value="Test Plan - Measure evaluation and Summary composition"/>
        <testCase>
          <sequence value="1"/>
          <testRun>
            <narrative value="**Test Measure**&#xA;   * Populate the server with some data and a Measure&#xA;   * call the $eval operation&#xA;   * Use JSONpath to check that the measure evaluates correctly"/>
            <script>
              <language>
                <coding>
                  <code value="gherkin"/>
                </coding>
              </language>
              <sourceReference>
                <reference value="Binary/ghript-measure"/>
              </sourceReference>
            </script>
          </testRun>
        </testCase>
        <testCase>
          <sequence value="2"/>
          <testRun>
            <narrative value="**Test Summary**&#xA;   * Populate the server with some data&#xA;   * call the $summary operation&#xA;   * check that the summary is generated&#xA;   * check that the summary was not persisted"/>
            <script>
              <language>
                <coding>
                  <code value="gherkin"/>
                </coding>
              </language>
              <sourceReference>
                <reference value="Binary/ghript-summary"/>
              </sourceReference>
            </script>
          </testRun>
        </testCase>
      </TestPlan>
    </resource>
    <request>
      <method value="PUT"/>
      <url value="TestPlan"/>
    </request>
  </entry>
  <entry>
    <fullUrl value="urn:uuid:05350493-265e-4f8d-87b3-549b19bd5c9e"/>
    <resource>
      <Binary>
        <id value="ghript-measure"/>
        <contentType value="text/x-gherkin"/>
        <data value=""/>
      </Binary>
    </resource>
    <request>
      <method value="PUT"/>
      <url value="Binary"/>
    </request>
  </entry>
  <entry>
    <fullUrl value="urn:uuid:05350493-265e-4f8d-87b3-549b19bd5c9f"/>
    <resource>
      <Binary>
        <id value="ghript-summary"/>
        <contentType value="text/x-gherkin"/>
        <data value=""/>
      </Binary>
    </resource>
    <request>
      <method value="PUT"/>
      <url value="Binary"/>
    </request>
  </entry>
</Bundle>